Folder: Legendre-Memory-Model-for-battery-data-forcasting/dataset/ETT-small

Note: README.md
# Legendre-Memory-Model-for-battery-data-forcasting
## :paperclip: Overview
• :file_folder:[`dataset/ETT-small`](https://github.com/Niharikajo/Legendre-Memory-Model-for-battery-data-forcasting/tree/main/dataset/ETT-small) contains the dataset used for the experiment. </br>
• :page_facing_up:[`data_provider`](https://github.com/Niharikajo/Legendre-Memory-Model-for-battery-data-forcasting/tree/main/data_provider) contains the data preprocessing files.</br>
• :file_folder: [`models`](https://github.com/Niharikajo/Legendre-Memory-Model-for-battery-data-forcasting/tree/main/models) contains the FiLM model architecture.

#
 **:round_pushpin:Code has been executed in Google Colaboratory.**
#
 ## Code Execution on Google Colab 
• Download the code, unzip it and upload it to drive. </br>
• Mount the drive on google colab. </br>
• Install any missing dependencies. </br>
• Run the following python script </br>
``` python
!bash ./script/ETT_script/FiLM/FiLM_ETTm2.sh
``` 
</br>

## Acknowledgments
Dataset source : Diao, W., Saxena, S., Pecht, M. Accelerated Cycle Life Testing and Capacity Degradation Modeling of LiCoO2 -graphite Cells. J. Power Sources 2019, 435, 226830. https://web.calce.umd.edu/batteries/data.htm
We appreciate the following github repos a lot for their valuable code base and datasets:
https://github.com/tianzhou2011/FiLM

File: dataset.csv
date,Voltage(V),Current(A),Charge_Capacity(Ah),Discharge_Capacity(Ah),Charge_Energy(Wh),Discharge_Energy(Wh)
27-01-2018 15:48,3.40964,0,0,0,0,0
27-01-2018 16:38,3.41436,0,0,0,0,0
27-01-2018 17:25,4.40014,2.0041,2.07967,0,8.94033,0
27-01-2018 18:13,3.91758,-2.28206,2.88492,0.07605899,12.4835,0.3023361
27-01-2018 19:03,3.32183,-2.2821,2.88492,1.977756,12.4835,7.070218
27-01-2018 19:48,4.3808,3.25982,1.37698,0,5.84275,0
27-01-2018 20:38,4.4001,0.651983,2.68477,0,11.5965,0
27-01-2018 21:27,3.44679,-2.28211,2.68477,1.673462,11.5965,6.128767
27-01-2018 22:12,4.24472,3.25988,0.803223,0,3.37465,0
27-01-2018 23:02,4.40012,0.91576,2.56129,0,11.0612,0
27-01-2018 23:49,3.55062,-2.2821,2.69971,1.217085,11.6703,4.546021
28-01-2018 00:35,4.20021,4.48319,0.157677,0,0.658226,0
28-01-2018 01:25,4.40013,1.33103,2.3521,0,10.1389,0
28-01-2018 02:12,3.66812,-2.28218,2.7146,0.7606819,11.7339,2.905694
28-01-2018 03:02,3.06954,-2.28208,2.7146,2.662378,11.7339,9.438069
28-01-2018 03:48,4.40004,1.89522,2.03949,0,8.76201,0
28-01-2018 04:36,3.84731,-2.28207,2.7207,0.3042629,11.7594,1.195086
28-01-2018 05:26,3.33836,-2.28212,2.7207,2.205972,11.7594,7.974405
28-01-2018 06:12,4.40018,2.80788,1.58043,0,6.74123,0
28-01-2018 07:01,4.30215,0,2.72774,0,11.7895,0
28-01-2018 07:50,3.45294,-2.28208,2.72774,1.749558,11.7895,6.429012
28-01-2018 08:36,4.27236,3.26013,0.943587,0,3.97009,0
28-01-2018 09:26,4.40006,0.871483,2.61462,0,11.2921,0
28-01-2018 10:14,3.5458,-2.28196,2.7305,1.293154,11.802,4.836102
28-01-2018 11:01,4.20022,4.09117,0.302611,2.01E-09,1.26651,7.32E-09
28-01-2018 11:50,4.40003,1.2518,2.40802,2.01E-09,10.3817,7.32E-09
28-01-2018 12:38,3.65945,-2.28211,2.73288,0.836738,11.8111,3.194198
28-01-2018 13:28,3,-2.28222,2.73288,2.736314,11.8111,9.698596
28-01-2018 14:15,4.40017,1.77124,2.11378,0,9.08522,0
28-01-2018 15:03,3.82301,-2.28219,2.73697,0.3803015,11.8273,1.488792
28-01-2018 15:53,3.32192,-2.28205,2.73697,2.282023,11.8273,8.245202
28-01-2018 16:39,4.40012,2.59671,1.68492,0,7.19873,0
28-01-2018 17:28,4.29085,0,2.73792,0,11.832,0
28-01-2018 18:17,3.44324,-2.2821,2.73792,1.825623,11.832,6.703736
28-01-2018 19:04,4.30106,3.25996,1.06308,0,4.48129,0
28-01-2018 19:54,4.40004,0.816299,2.64986,0,11.4455,0
28-01-2018 20:42,3.53634,-2.28214,2.7367,1.369208,11.8276,5.11238
28-01-2018 21:29,4.20021,3.73665,0.434563,0,1.82042,0
28-01-2018 22:18,4.40012,1.17941,2.45575,0,10.59,0
28-01-2018 23:06,3.6409,-2.28209,2.73509,0.9128125,11.8192,3.474074
28-01-2018 23:56,3.59468,0,2.73509,2.735812,11.8192,9.708439
29-01-2018 00:42,4.40011,1.6748,2.17513,0,9.35411,0
29-01-2018 01:30,3.79604,-2.28192,2.73727,0.4564012,11.8276,1.77965
29-01-2018 02:20,3.30155,-2.28206,2.73727,2.358102,11.8276,8.505573
29-01-2018 03:06,4.40017,2.42774,1.76836,0,7.56572,0
29-01-2018 03:54,4.28785,0,2.73893,0,11.8363,0
29-01-2018 04:44,3.43171,-2.28201,2.73893,1.901698,11.8363,6.96978
29-01-2018 05:29,4.30163,3.25986,1.06565,0,4.49196,0
29-01-2018 06:19,4.40003,0.818598,2.65307,0,11.4592,0
29-01-2018 07:07,3.53759,-2.28191,2.73944,1.36922,11.8392,5.114594
29-01-2018 07:54,4.20016,3.74147,0.435085,0,1.82249,0
29-01-2018 08:43,4.40013,1.18124,2.45665,0,10.5937,0
29-01-2018 09:31,3.64354,-2.28201,2.7372,0.9127471,11.8282,3.476416
29-01-2018 10:21,3.59104,0,2.7372,2.737488,11.8282,9.721443
29-01-2018 12:36,4.40009,1.69086,2.15169,0,9.25778,0
29-01-2018 13:25,3.7993,-2.28208,2.73464,0.4564017,11.8228,1.781002
29-01-2018 14:15,3.3132,-2.28208,2.73464,2.358093,11.8228,8.513488
29-01-2018 15:02,4.40009,2.39151,1.78756,0,7.64604,0
29-01-2018 15:49,4.28829,0,2.74111,0,11.8418,0
29-01-2018 16:39,3.43353,-2.2822,2.74111,1.901685,11.8418,6.973833
29-01-2018 17:46,4.20545,3.2599,0.980975,0,4.11673,0
29-01-2018 18:39,4.40004,0.824003,2.65555,0,11.3963,0
29-01-2018 19:27,3.53901,-2.28214,2.74149,1.369214,11.7744,5.119696
29-01-2018 20:12,4.20021,4.16207,0.306564,0,1.28252,0
29-01-2018 21:02,4.4001,1.23871,2.42681,0,10.4596,0
29-01-2018 21:49,3.66873,-2.28212,2.73828,0.8366942,11.8301,3.201702
29-01-2018 22:39,3.00254,-2.28205,2.73828,2.73839,11.8301,9.733504
29-01-2018 23:24,4.40016,1.86385,2.07542,0,8.91181,0
30-01-2018 00:11,3.86415,-2.28203,2.73941,0.3042369,11.8334,1.199421
30-01-2018 01:01,3.36093,-2.28201,2.73941,2.205945,11.8334,8.010357
30-01-2018 01:48,4.40017,2.76061,1.61996,0,6.90843,0
30-01-2018 02:36,4.30331,0,2.7373,0,11.8249,0
30-01-2018 03:25,3.46684,-2.2821,2.7373,1.749551,11.8249,6.454083
30-01-2018 04:11,4.27389,3.25986,0.977918,0,4.11375,0
30-01-2018 05:01,4.40009,0.860879,2.6298,0,11.3527,0
30-01-2018 05:49,3.5576,-2.28203,2.73647,1.293146,11.8221,4.852501
30-01-2018 06:36,4.20025,4.17006,0.307004,0,1.28415,0
30-01-2018 07:25,4.40002,1.23509,2.42454,0,10.4485,0
30-01-2018 08:13,3.67026,-2.28206,2.73753,0.8367463,11.8256,3.202407
30-01-2018 09:03,3,-2.28211,2.73753,2.735256,11.8256,9.722481
30-01-2018 09:50,4.40007,1.75142,2.13064,0,9.15562,0
30-01-2018 10:37,3.83366,-2.28215,2.73577,0.3803402,11.8183,1.49276
30-01-2018 11:27,3.33441,-2.28214,2.73577,2.282016,11.8183,8.26694
30-01-2018 12:13,4.40015,2.57134,1.70395,0,7.27907,0
30-01-2018 13:02,4.29187,0,2.73296,0,11.8068,0
30-01-2018 13:51,3.45192,-2.28195,2.73296,1.82557,11.8068,6.718
30-01-2018 14:37,4.30366,3.25994,1.08968,0,4.5929,0
30-01-2018 15:27,4.40005,0.797106,2.65591,0,11.4679,0
30-01-2018 16:14,3.53989,-2.28175,2.73083,1.369182,11.7976,5.121646
30-01-2018 17:01,4.20017,3.75927,0.437338,0,1.83176,0
30-01-2018 17:51,4.40013,1.16747,2.45395,0,10.581,0
30-01-2018 18:38,3.64707,-2.28222,2.72784,0.9128089,11.7861,3.48057
30-01-2018 19:28,3.58749,0,2.72784,2.728266,11.7861,9.697697
30-01-2018 20:15,4.40004,1.64831,2.17919,0,9.37082,0
30-01-2018 21:02,3.80255,-2.28198,2.72782,0.4563847,11.7848,1.78244
30-01-2018 21:52,3.30334,-2.28213,2.72782,2.358041,11.7848,8.515196
30-01-2018 22:38,4.4001,2.38136,1.78399,0,7.63178,0
30-01-2018 23:25,4.28837,0,2.72751,0,11.7834,0
31-01-2018 00:15,3.43458,-2.28215,2.72751,1.901686,11.7834,6.977636
31-01-2018 01:02,4.33285,3.26014,1.1897,0,5.02576,0
31-01-2018 01:52,4.40009,0.752352,2.67476,0,11.5522,0
31-01-2018 02:39,3.52563,-2.2821,2.72665,1.445283,11.7805,5.39118
31-01-2018 03:26,4.20021,3.46615,0.558303,0,2.33974,0
31-01-2018 04:15,4.40003,1.09328,2.49276,0,10.7512,0
31-01-2018 05:03,3.62871,-2.28215,2.72509,0.9888747,11.7734,3.757715
31-01-2018 05:52,3.62385,0,2.72509,2.72528,11.7734,9.69056
31-01-2018 06:39,4.40004,1.55403,2.23444,2.72E-10,9.61302,9.88E-10
31-01-2018 07:26,3.77289,-2.28209,2.72541,0.5324498,11.7733,2.070882
31-01-2018 08:16,3.26937,-2.2821,2.72541,2.434134,11.7733,8.767509
31-01-2018 09:02,4.40013,2.23101,1.85834,0,7.95919,0
31-01-2018 09:49,3.97682,-2.28217,2.72408,0.07606294,11.7685,0.305812
31-01-2018 10:39,3.4188,-2.28206,2.72408,1.977718,11.7685,7.238463
31-01-2018 11:26,4.36141,3.25987,1.29745,0,5.48791,0
31-01-2018 12:16,4.40008,0.704159,2.69825,0,11.649,0
31-01-2018 13:03,3.50997,-2.28174,2.72505,1.521352,11.767,5.658295
31-01-2018 13:49,4.20011,3.25999,0.646606,7.04E-10,2.71057,2.56E-09
31-01-2018 14:39,4.40007,1.02782,2.52726,7.04E-10,10.9028,2.56E-09
31-01-2018 15:26,3.60957,-2.28215,2.72427,1.064951,11.7697,4.033391
31-01-2018 16:15,3.63346,0,2.72427,2.723602,11.7697,9.685712
31-01-2018 17:03,4.40009,1.46723,2.28388,0,9.83081,0
31-01-2018 17:50,3.74477,-2.28205,2.72371,0.6085446,11.7661,2.357188
31-01-2018 18:40,3.22649,-2.282,2.72371,2.510246,11.7661,9.015537
31-01-2018 19:26,4.4001,2.08485,1.93227,0,8.28385,0
31-01-2018 20:13,3.93436,-2.28213,2.7234,0.1521252,11.7649,0.6066236
31-01-2018 21:03,3.40046,-2.2822,2.7234,2.053831,11.7649,7.498108
31-01-2018 21:49,4.39499,3.25984,1.408,1.33E-09,5.97801,4.82E-09
31-01-2018 22:39,4.40004,0.657387,2.71969,1.33E-09,11.7495,4.82E-09
31-01-2018 23:27,3.49513,-2.282,2.7229,1.597428,11.7637,5.925076
01-02-2018 00:13,4.22329,3.25978,0.761063,3.27E-09,3.19243,1.19E-08
01-02-2018 01:03,4.40007,0.962936,2.55934,3.27E-09,11.0437,1.19E-08
01-02-2018 01:50,3.59127,-2.28198,2.72173,1.140991,11.7582,4.307847
01-02-2018 02:37,3.63255,0,0,0,0,0
01-02-2018 03:26,4.40009,1.37911,2.33316,0,10.0472,0
01-02-2018 04:15,3.69361,-2.28199,2.72305,0.7606459,11.7627,2.923511
01-02-2018 05:05,3.09084,-2.28213,2.72305,2.662329,11.7627,9.498525
01-02-2018 05:52,4.40012,1.84888,2.06443,0,8.86507,0
01-02-2018 06:40,3.83613,-2.28213,2.72174,0.3803313,11.7573,1.493268
01-02-2018 07:30,3.33349,-2.28202,2.72174,2.282013,11.7573,8.268167
01-02-2018 08:17,4.4001,2.55029,1.70034,0,7.26378,0
01-02-2018 09:05,4.29167,0,2.72113,0,11.7553,0
01-02-2018 09:54,3.45148,-2.28217,2.72113,1.825563,11.7553,6.718115
01-02-2018 10:40,4.30374,3.25992,1.08939,0,4.5916,0
01-02-2018 11:30,4.40005,0.792077,2.64817,0,11.4338,0
01-02-2018 12:19,3.52386,-2.28213,2.71955,1.445278,11.7479,5.389847
01-02-2018 13:05,4.20018,3.48758,0.56034,0,2.34814,0
01-02-2018 13:55,4.4001,1.08138,2.49535,0,10.7607,0
01-02-2018 14:44,3.60938,-2.28211,2.71965,1.06495,11.7476,4.034204
01-02-2018 15:32,3.63194,0,2.71965,2.718238,11.7476,9.672337
01-02-2018 16:20,4.40003,1.46272,2.28211,0,9.82317,0
01-02-2018 17:09,3.71973,-2.28197,2.72002,0.6846037,11.75,2.642302
01-02-2018 17:59,3.16857,-2.28212,2.72002,2.586305,11.75,9.261471
01-02-2018 18:45,4.4001,1.95865,1.99762,1.05E-10,8.57184,3.83E-10
01-02-2018 19:32,3.90014,-2.28207,2.71913,0.2281972,11.7466,0.9048284
01-02-2018 20:22,3.38202,-2.2821,2.71913,2.129897,11.7466,7.757717
01-02-2018 21:08,4.40019,2.99516,1.51852,0,6.46307,0
01-02-2018 21:58,4.30288,0,2.7202,0,11.7506,0
01-02-2018 22:47,3.46547,-2.28203,2.7202,1.749532,11.7506,6.453653
01-02-2018 23:34,4.27463,3.25993,0.979991,2.88E-10,4.12227,1.05E-09
02-02-2018 00:24,4.4001,0.84183,2.62169,2.88E-10,11.3168,1.05E-09
02-02-2018 01:12,3.53951,-2.28216,2.72003,1.369179,11.7495,5.121676
02-02-2018 01:59,4.2002,3.77841,0.439232,0,1.83943,0
02-02-2018 02:49,4.40012,1.15161,2.45694,0,10.5921,0
02-02-2018 03:38,3.62927,-2.2821,2.71901,0.9888678,11.7452,3.759682
02-02-2018 04:27,3.6212,0,2.71901,2.717375,11.7452,9.666493
02-02-2018 05:14,4.40013,1.54678,2.22839,0,9.5875,0
02-02-2018 06:04,4.40006,0.322773,2.88732,0,12.4868,0
02-02-2018 06:54,4.40006,0.0916977,3.03366,0,13.1307,0
02-02-2018 06:59,4.39997,0.0814886,3.04078,0,13.1621,0